                                       2     1000000     1569095109
 fusion Spectra Problem  Configuration 3  On Axis  Photon Tally  ENDF/B-VI      
ntal     1
   15
tally   15    2    1
f        1
d        2
u        0
s        0
m        0
c        0
et      89
  7.20000E-01  7.60000E-01  8.00000E-01  8.40000E-01  8.80000E-01  9.20000E-01
  9.60000E-01  1.00000E+00  1.04000E+00  1.08000E+00  1.13000E+00  1.17000E+00
  1.22000E+00  1.28000E+00  1.33000E+00  1.38000E+00  1.42000E+00  1.47000E+00
  1.53000E+00  1.58000E+00  1.64000E+00  1.72000E+00  1.80000E+00  1.88000E+00
  1.96000E+00  2.04000E+00  2.12000E+00  2.20000E+00  2.28000E+00  2.36000E+00
  2.45000E+00  2.55000E+00  2.65000E+00  2.75000E+00  2.85000E+00  2.95000E+00
  3.05000E+00  3.15000E+00  3.25000E+00  3.35000E+00  3.45000E+00  3.55000E+00
  3.66000E+00  3.79000E+00  3.93000E+00  4.06000E+00  4.19000E+00  4.31000E+00
  4.44000E+00  4.57000E+00  4.70000E+00  4.83000E+00  4.99000E+00  5.15000E+00
  5.32000E+00  5.50000E+00  5.67000E+00  5.83000E+00  6.00000E+00  6.18000E+00
  6.35000E+00  6.51000E+00  6.70000E+00  6.90000E+00  7.10000E+00  7.30000E+00
  7.50000E+00  7.70000E+00  7.90000E+00  8.10000E+00  8.30000E+00  8.50000E+00
  8.73000E+00  8.98000E+00  9.23000E+00  9.48000E+00  9.73000E+00  9.98000E+00
  1.03000E+01  1.07000E+01  1.11000E+01  1.15000E+01  1.19000E+01  1.23000E+01
  1.27000E+01  1.31000E+01  1.35000E+01  1.39000E+01
t        0
vals
  3.65881E-09 0.0130  6.92379E-08 0.0121  9.88916E-08 0.0111  1.22295E-07 0.0136
  1.26077E-07 0.0099  1.14819E-07 0.0106  9.61775E-08 0.0213  7.78859E-08 0.0143
  6.66486E-08 0.0139  6.12508E-08 0.0163  5.95401E-08 0.0157  5.85029E-08 0.0149
  6.03274E-08 0.0135  6.11465E-08 0.0136  5.88391E-08 0.0130  5.79029E-08 0.0161
  5.50468E-08 0.0154  5.25200E-08 0.0181  4.96780E-08 0.0137  4.58751E-08 0.0145
  4.45679E-08 0.0148  4.49219E-08 0.0143  4.37121E-08 0.0133  4.55983E-08 0.0175
  4.70727E-08 0.0142  4.95658E-08 0.0139  4.90871E-08 0.0125  4.89808E-08 0.0116
  4.46707E-08 0.0122  4.04256E-08 0.0131  3.42685E-08 0.0136  2.92985E-08 0.0146
  2.58239E-08 0.0151  2.54852E-08 0.0177  2.40599E-08 0.0251  2.35383E-08 0.0234
  2.18945E-08 0.0166  2.31607E-08 0.0173  2.46132E-08 0.0186  2.57615E-08 0.0198
  2.78899E-08 0.0375  2.72110E-08 0.0170  2.72014E-08 0.0187  2.38663E-08 0.0136
  2.14565E-08 0.0239  1.86707E-08 0.0226  1.65438E-08 0.0161  1.68528E-08 0.0169
  1.71430E-08 0.0182  1.75097E-08 0.0205  1.84865E-08 0.0144  1.94191E-08 0.0155
  1.95653E-08 0.0167  1.82811E-08 0.0171  1.72489E-08 0.0249  1.51730E-08 0.0168
  1.47106E-08 0.0182  1.48121E-08 0.0143  1.56569E-08 0.0142  1.56472E-08 0.0185
  1.45038E-08 0.0128  1.35501E-08 0.0140  1.32510E-08 0.0153  1.35794E-08 0.0110
  1.51603E-08 0.0103  1.80468E-08 0.0129  2.01750E-08 0.0098  2.07491E-08 0.0093
  1.94193E-08 0.0084  1.69000E-08 0.0097  1.34138E-08 0.0108  1.05676E-08 0.0101
  8.94586E-09 0.0130  7.48753E-09 0.0117  6.29421E-09 0.0110  5.01437E-09 0.0115
  3.47956E-09 0.0131  2.18799E-09 0.0160  1.20243E-09 0.0202  5.10774E-10 0.0417
  1.89675E-10 0.1636  5.37697E-11 0.0908  1.55082E-11 0.1331  1.34964E-11 0.1935
  2.26172E-11 0.4278  9.50424E-12 0.2422  8.68441E-12 0.2332  5.26345E-12 0.3332
  2.72093E-06 0.0047  1.43809E-09 0.0143  3.11637E-08 0.0132  4.79458E-08 0.0114
  6.15053E-08 0.0104  6.33643E-08 0.0104  5.33581E-08 0.0109  3.76424E-08 0.0120
  2.42430E-08 0.0144  1.62035E-08 0.0172  1.30544E-08 0.0191  1.32179E-08 0.0187
  1.51232E-08 0.0188  1.78753E-08 0.0158  2.08339E-08 0.0136  2.24150E-08 0.0142
  2.21302E-08 0.0142  2.17113E-08 0.0153  2.06387E-08 0.0144  1.92391E-08 0.0134
  1.85805E-08 0.0142  1.77555E-08 0.0131  1.89431E-08 0.0125  2.00759E-08 0.0109
  2.22482E-08 0.0108  2.53826E-08 0.0119  2.87625E-08 0.0098  3.07260E-08 0.0094
  3.14818E-08 0.0093  2.96650E-08 0.0095  2.61177E-08 0.0107  2.05986E-08 0.0105
  1.63524E-08 0.0111  1.38092E-08 0.0120  1.36947E-08 0.0125  1.29380E-08 0.0121
  1.30309E-08 0.0123  1.29568E-08 0.0120  1.34084E-08 0.0117  1.56974E-08 0.0152
  1.70438E-08 0.0108  1.88361E-08 0.0101  2.00801E-08 0.0102  1.98982E-08 0.0099
  1.76049E-08 0.0110  1.47576E-08 0.0106  1.27045E-08 0.0112  1.17047E-08 0.0114
  1.16797E-08 0.0119  1.21782E-08 0.0110  1.29700E-08 0.0108  1.43994E-08 0.0105
  1.53527E-08 0.0103  1.58805E-08 0.0134  1.48741E-08 0.0096  1.37035E-08 0.0138
  1.21048E-08 0.0100  1.21366E-08 0.0152  1.25703E-08 0.0093  1.32699E-08 0.0104
  1.33569E-08 0.0088  1.27267E-08 0.0102  1.18835E-08 0.0097  1.15905E-08 0.0093
  1.22340E-08 0.0093  1.39545E-08 0.0082  1.65960E-08 0.0075  1.90084E-08 0.0071
  2.00104E-08 0.0070  1.88065E-08 0.0070  1.61743E-08 0.0074  1.30631E-08 0.0080
  1.02929E-08 0.0088  8.61292E-09 0.0092  7.30993E-09 0.0095  6.20942E-09 0.0103
  4.96952E-09 0.0112  3.46155E-09 0.0130  2.17220E-09 0.0159  1.18993E-09 0.0194
  5.10774E-10 0.0417  1.60452E-10 0.0651  5.37697E-11 0.0908  1.55082E-11 0.1331
  1.34964E-11 0.1935  1.37504E-11 0.2048  9.50424E-12 0.2422  8.68441E-12 0.2332
  5.26345E-12 0.3332  1.44349E-06 0.0045
tfc   16       1       1       1       1       1       1      89       1
      64000  2.68796E-06  2.02177E-02
     128000  2.72076E-06  1.34481E-02
     192000  2.71760E-06  1.09024E-02
     256000  2.71585E-06  9.31798E-03
     320000  2.72328E-06  8.31734E-03
     384000  2.72590E-06  7.53085E-03
     448000  2.70433E-06  7.03485E-03
     512000  2.70264E-06  6.54020E-03
     576000  2.70749E-06  6.14684E-03
     640000  2.71089E-06  5.81223E-03
     704000  2.71232E-06  5.52521E-03
     768000  2.71081E-06  5.27700E-03
     832000  2.71305E-06  5.05807E-03
     896000  2.71378E-06  4.94261E-03
     960000  2.72329E-06  4.83869E-03
    1000000  2.72093E-06  4.73516E-03
