                                       2     1000000     1947317234
 fusion Spectra Problem  Configuration 7  Off Axis  Photon Tally  ENDF/B-VI     
ntal     1
   15
tally   15    2    1
f        1
d        2
u        0
s        0
m        0
c        0
et      89
  7.20000E-01  7.60000E-01  8.00000E-01  8.40000E-01  8.80000E-01  9.20000E-01
  9.60000E-01  1.00000E+00  1.04000E+00  1.08000E+00  1.13000E+00  1.17000E+00
  1.22000E+00  1.28000E+00  1.33000E+00  1.38000E+00  1.42000E+00  1.47000E+00
  1.53000E+00  1.58000E+00  1.64000E+00  1.72000E+00  1.80000E+00  1.88000E+00
  1.96000E+00  2.04000E+00  2.12000E+00  2.20000E+00  2.28000E+00  2.36000E+00
  2.45000E+00  2.55000E+00  2.65000E+00  2.75000E+00  2.85000E+00  2.95000E+00
  3.05000E+00  3.15000E+00  3.25000E+00  3.35000E+00  3.45000E+00  3.55000E+00
  3.66000E+00  3.79000E+00  3.93000E+00  4.06000E+00  4.19000E+00  4.31000E+00
  4.44000E+00  4.57000E+00  4.70000E+00  4.83000E+00  4.99000E+00  5.15000E+00
  5.32000E+00  5.50000E+00  5.67000E+00  5.83000E+00  6.00000E+00  6.18000E+00
  6.35000E+00  6.51000E+00  6.70000E+00  6.90000E+00  7.10000E+00  7.30000E+00
  7.50000E+00  7.70000E+00  7.90000E+00  8.10000E+00  8.30000E+00  8.50000E+00
  8.73000E+00  8.98000E+00  9.23000E+00  9.48000E+00  9.73000E+00  9.98000E+00
  1.03000E+01  1.07000E+01  1.11000E+01  1.15000E+01  1.19000E+01  1.23000E+01
  1.27000E+01  1.31000E+01  1.35000E+01  1.39000E+01
t        0
vals
  1.80529E-10 0.0163  3.31974E-09 0.0166  4.81985E-09 0.0165  6.53153E-09 0.1064
  6.53081E-09 0.0480  5.80368E-09 0.0141  5.34471E-09 0.0150  5.00777E-09 0.0213
  4.51494E-09 0.0141  4.45532E-09 0.0202  4.28080E-09 0.0147  4.21682E-09 0.0328
  4.19430E-09 0.0146  4.04882E-09 0.0139  4.07953E-09 0.0239  3.98500E-09 0.0189
  3.73295E-09 0.0168  3.69796E-09 0.0200  3.44433E-09 0.0148  3.35856E-09 0.0179
  3.13319E-09 0.0147  3.07191E-09 0.0150  2.98991E-09 0.0152  3.03653E-09 0.0266
  2.94357E-09 0.0168  2.92368E-09 0.0153  2.93966E-09 0.0160  3.00174E-09 0.0159
  2.92777E-09 0.0212  2.55655E-09 0.0194  2.27761E-09 0.0203  2.02308E-09 0.0163
  1.86140E-09 0.0179  1.87694E-09 0.0257  1.71617E-09 0.0190  1.69666E-09 0.0380
  1.71449E-09 0.0381  1.63565E-09 0.0321  1.65622E-09 0.0219  1.61033E-09 0.0209
  1.65909E-09 0.0203  1.68319E-09 0.0363  1.56285E-09 0.0220  1.49068E-09 0.0198
  1.34403E-09 0.0203  1.24307E-09 0.0212  1.22354E-09 0.0221  1.22856E-09 0.0206
  1.19007E-09 0.0221  1.19450E-09 0.0185  1.23190E-09 0.0210  1.20070E-09 0.0202
  1.19121E-09 0.0193  1.06771E-09 0.0173  1.05885E-09 0.0200  1.04164E-09 0.0207
  1.05841E-09 0.0187  1.06059E-09 0.0200  1.09666E-09 0.0175  1.09924E-09 0.0196
  1.03284E-09 0.0212  8.95670E-10 0.0247  1.01623E-09 0.1019  9.61474E-10 0.0175
  1.07789E-09 0.0139  1.26603E-09 0.0112  1.42260E-09 0.0107  1.45411E-09 0.0097
  1.34484E-09 0.0102  1.12870E-09 0.0094  9.25856E-10 0.0114  7.31982E-10 0.0120
  6.06705E-10 0.0112  5.19228E-10 0.0120  4.51905E-10 0.0129  3.61904E-10 0.0254
  2.44681E-10 0.0151  1.55080E-10 0.0188  8.18636E-11 0.0228  3.19561E-11 0.0299
  9.85813E-12 0.0450  2.93362E-12 0.0840  1.13696E-12 0.1840  7.51215E-13 0.1724
  6.00656E-13 0.2254  1.91763E-13 0.3455  3.31290E-13 0.2442  3.39533E-13 0.2789
  1.73795E-07 0.0081  3.56681E-11 0.0308  8.11662E-10 0.0295  1.26727E-09 0.0228
  1.61159E-09 0.0220  1.64904E-09 0.0215  1.40268E-09 0.0217  1.02875E-09 0.0238
  6.95558E-10 0.0300  5.04141E-10 0.0311  4.72234E-10 0.0350  4.51580E-10 0.0393
  5.23913E-10 0.0331  6.10126E-10 0.0278  7.42155E-10 0.0282  7.96177E-10 0.0250
  8.03696E-10 0.0250  7.83725E-10 0.0258  7.35798E-10 0.0248  6.88444E-10 0.0239
  6.28574E-10 0.0231  6.08367E-10 0.0212  6.33544E-10 0.0217  6.48736E-10 0.0197
  6.83604E-10 0.0197  7.98908E-10 0.0214  9.20927E-10 0.0205  1.05881E-09 0.0211
  1.16102E-09 0.0198  1.10868E-09 0.0153  9.85922E-10 0.0173  7.95531E-10 0.0191
  6.20486E-10 0.0170  5.24842E-10 0.0214  5.24422E-10 0.0193  5.02291E-10 0.0177
  4.94232E-10 0.0238  5.07915E-10 0.0228  5.21525E-10 0.0208  5.92269E-10 0.0227
  6.32073E-10 0.0195  6.82918E-10 0.0187  6.91937E-10 0.0201  6.84466E-10 0.0221
  6.55024E-10 0.0230  5.62275E-10 0.0196  5.18793E-10 0.0162  5.25282E-10 0.0170
  5.42868E-10 0.0152  5.64880E-10 0.0174  5.96327E-10 0.0152  6.36915E-10 0.0177
  6.44539E-10 0.0164  6.54083E-10 0.0167  6.04919E-10 0.0129  5.83271E-10 0.0153
  5.75335E-10 0.0144  6.29113E-10 0.0130  6.78755E-10 0.0111  7.22472E-10 0.0104
  7.19896E-10 0.0116  6.72859E-10 0.0126  6.26413E-10 0.0123  6.33587E-10 0.0119
  6.88981E-10 0.0094  8.59592E-10 0.0088  1.06195E-09 0.0078  1.23346E-09 0.0067
  1.29433E-09 0.0066  1.21827E-09 0.0066  1.05134E-09 0.0073  8.49071E-10 0.0079
  6.78117E-10 0.0081  5.75367E-10 0.0095  4.88739E-10 0.0084  4.29002E-10 0.0089
  3.35627E-10 0.0097  2.37063E-10 0.0132  1.49084E-10 0.0141  7.92043E-11 0.0170
  3.10738E-11 0.0243  9.84722E-12 0.0450  2.93362E-12 0.0840  1.13696E-12 0.1840
  7.51215E-13 0.1724  6.00656E-13 0.2254  1.91763E-13 0.3455  3.31290E-13 0.2442
  3.39533E-13 0.2789  5.62502E-08 0.0085
tfc   16       1       1       1       1       1       1      89       1
      64000  1.87951E-07  2.83673E-02
     128000  1.80275E-07  1.89741E-02
     192000  1.77641E-07  1.53255E-02
     256000  1.77833E-07  1.33944E-02
     320000  1.74427E-07  1.22016E-02
     384000  1.74476E-07  1.11763E-02
     448000  1.74605E-07  1.12630E-02
     512000  1.73804E-07  1.03484E-02
     576000  1.73076E-07  9.68643E-03
     640000  1.72560E-07  9.09009E-03
     704000  1.72076E-07  8.58260E-03
     768000  1.72675E-07  8.15493E-03
     832000  1.73750E-07  9.15884E-03
     896000  1.73869E-07  8.68889E-03
     960000  1.73933E-07  8.27693E-03
    1000000  1.73795E-07  8.08313E-03
